Folder: DFTnHR/Resources/Input

File: HRSA2420 6717330 HR_GASSORP 000-617_Table.csv
Relative Pressure,Absolute Pressure,Adsorbed Amount,Elapsed Time,Saturation Pressure,BJH-A-CuPV_(Pore Width),BJH-A-CuPV_(Pore Volume),BJH-A-PoSD_(Pore Width),BJH-A-PoSD_(dV/dlog(D)PV),BJH-D-CuPV_(Pore Width),BJH-D-CuPV_(Pore Volume),BJH-D-PoSD_(Pore Width),BJH-D-PoSD_(dV/dlog(D)PV)
0.000287134,0.220099,3.5018,04:53,766.538,75.5049,0.255854,89.4288,0.0696258,57.9862,0.00912569,66.7758,0.000400909
0.002401805,1.838619,6.5218,06:44,765.516,38.4988,0.22736,45.8006,0.185893,43.8695,0.0170204,48.918,0.00073852
0.006100759,4.665473,8.7780,08:28,764.737,26.7602,0.179519,30.4821,0.163253,38.4688,0.0220415,40.7968,0.00115645
0.007587312,5.777565,9.4611,14:45,761.477,21.0601,0.150642,23.2003,0.12712,29.3078,0.0420875,32.5996,0.00409288
0.009722341,7.402130,10.2577,14:51,761.353,17.1711,0.135892,18.6985,0.118271,23.182,0.0788833,25.4908,0.00608871
0.0252328,19.2098,14.1464,15:00,761.301,14.4731,0.12511,15.5778,0.116986,17.9695,0.108735,19.8758,0.00479479
0.0412056,31.3691,16.7402,15:04,761.284,12.4645,0.116449,13.309,0.120969,14.3234,0.124882,15.7047,0.00432913
0.058363,44.431,18.7963,15:09,761.287,10.9131,0.108829,11.5786,0.131617,12.3362,0.133807,13.1683,0.00466374
0.0729583,55.5457,20.2102,15:13,761.335,9.68149,0.101582,10.2183,0.144363,11.5926,0.137323,11.939,0.00492379
0.0992843,75.5882,22.2938,15:17,761.331,8.69031,0.0944448,9.12842,0.156715,10.2683,0.144334,10.8422,0.00571339
0.124406,94.7054,23.9698,15:21,761.262,7.85753,0.0873698,8.22882,0.167715,9.18612,0.151032,9.66061,0.00682943
0.149447,113.742,25.4671,15:25,761.082,7.16488,0.0802766,7.4768,0.17474,8.32472,0.157501,8.70829,0.00824122
0.174434,132.748,26.8682,15:29,761.018,6.56629,0.0733422,6.83747,0.176259,7.59132,0.164108,7.92028,0.0101098
0.199472,151.782,28.2108,15:33,760.917,6.05182,0.0666278,6.28644,0.173034,6.97821,0.171024,7.25583,0.012539
0.224453,170.785,29.5373,15:37,760.894,5.59475,0.0603685,5.80395,0.167243,6.43877,0.17849,6.68407,0.0154789
0.249491,189.816,30.8525,15:41,760.813,5.19312,0.054565,5.37782,0.159747,5.97317,0.186491,6.18624,0.0189277
0.274507,208.811,32.1778,15:44,760.675,4.83301,0.0492329,4.99914,0.150629,5.55573,0.195096,5.74731,0.0220162
0.29951,227.809,33.5290,15:48,760.603,4.5099,0.0443645,4.65943,0.139619,5.1844,0.20374,5.35546,0.0240133
0.324474,246.811,34.9348,15:52,760.65,4.2173,0.0399655,4.35306,0.127999,4.85098,0.211981,5.00505,0.0247854
0.349507,265.81,36.4021,15:56,760.527,3.94796,0.0360635,4.07309,0.116168,4.54851,0.219449,4.6886,0.0240755
0.374019,284.476,37.9498,16:00,760.592,3.70383,0.0325731,3.81755,0.104975,4.2718,0.225923,4.40019,0.0225734
0.398993,303.467,39.6458,16:04,760.583,3.47652,0.0294984,3.58248,0.0938613,4.13648,0.228921,4.20163,0.0215793
0.423869,322.375,41.4706,16:08,760.552,3.26587,0.0267752,3.36416,0.0828286,4.01158,0.231563,4.07182,0.0205619
0.448756,341.269,43.4477,16:13,760.478,3.06961,0.0243671,3.16126,0.072075,3.89377,0.233897,3.95065,0.0196814
0.47366,360.151,45.5755,16:18,760.356,2.8851,0.0222876,2.97127,0.061431,3.78068,0.236061,3.8353,0.0191864
0.498345,378.953,47.8652,16:23,760.424,2.71464,0.0205,2.79436,0.0521875,3.72165,0.23712,3.75063,0.0191158
0.523339,397.875,50.3696,16:28,760.262,2.54999,0.0190097,2.62687,0.0442153,3.66797,0.238142,3.69436,0.0190916
0.54811,416.708,53.0721,16:34,760.265,2.39404,0.0177516,2.46683,0.0379844,3.56965,0.240039,3.61726,0.0188883
0.572916,435.535,56.0265,16:40,760.208,2.24488,0.016636,2.31443,0.0331797,3.46627,0.242072,3.51619,0.018034
0.597809,454.479,59.2279,16:46,760.241,2.10161,0.0156679,2.16831,0.0294861,3.36728,0.243856,3.41511,0.0161874
0.62262,473.292,62.6741,16:52,760.163,1.96308,0.0147874,2.02744,0.0266227,3.18663,0.2463,3.27116,0.011442
0.647629,492.182,66.3862,16:59,759.976,1.82863,0.0139724,1.89093,0.0242868,3.01265,0.247884,3.09394,0.00788062
0.672334,510.879,70.3471,17:06,759.859,1.69644,0.0131826,1.75745,0.0226049,2.84505,0.248975,2.92323,0.00599242
0.697287,529.795,74.5848,17:13,759.795,1.56569,0.0124448,1.62573,0.0218932,2.68727,0.24982,2.76087,0.00553179
0.722037,548.671,78.9752,17:20,759.892,1.43406,0.0116779,1.49405,0.0223486,"","","",""
0.747152,567.682,83.5164,17:27,759.795,1.29887,0.0108558,1.3598,0.0242852,"","","",""
0.771933,586.519,88.1044,17:34,759.806,1.14923,0.00986606,1.21509,0.0283487,"","","",""
0.796923,605.462,92.8130,17:41,759.749,1.05962,0.00848758,1.10091,0.0310428,"","","",""
0.821782,624.327,97.6747,17:49,759.724,0.94301,0.0074294,0.994884,0.0328702,"","","",""
0.846388,643.094,102.8567,17:56,759.809,0.81334,0.00577887,0.869362,0.0309511,"","","",""
0.87064,661.607,108.7768,18:04,759.909,0.633924,0.00365175,0.704229,0.0161917,"","","",""
0.894837,679.934,116.1509,18:13,759.841,0.597793,0.00109588,0.614963,0.0136892,"","","",""
0.917658,697.268,126.1867,18:25,759.835,0.568651,0.000754699,0.582617,0.0112666,"","","",""
0.943295,716.558,145.7953,18:42,759.633,0.465737,0.000429432,0.509059,0.00173579,"","","",""
0.971563,737.68,179.0380,19:11,759.272,,,,,,,,
0.984808,747.648,191.6984,19:24,759.181,,,,,,,,
0.991527,752.696,199.7691,19:35,759.128,,,,,,,,
0.975427,740.714,191.9601,19:44,759.374,,,,,,,,
0.962557,731.053,185.5122,19:54,759.491,,,,,,,,
0.950075,721.721,180.0663,20:02,759.646,,,,,,,,
0.942815,716.318,176.6617,20:10,759.766,,,,,,,,
0.924228,702.062,163.4592,20:28,759.621,,,,,,,,
0.90343,686.34,140.0404,20:51,759.704,,,,,,,,
0.874436,664.196,121.2687,21:06,759.571,,,,,,,,
0.841638,639.339,110.8535,21:19,759.637,,,,,,,,
0.815751,619.548,104.9981,21:27,759.482,,,,,,,,
0.803854,610.493,102.6766,21:33,759.458,,,,,,,,
0.778585,591.254,98.0981,21:40,759.395,,,,,,,,
0.752841,571.76,93.7857,21:47,759.469,,,,,,,,
0.727927,552.796,89.7198,21:54,759.412,,,,,,,,
0.702673,533.628,85.6629,22:01,759.426,,,,,,,,
0.677942,514.831,81.5549,22:08,759.402,,,,,,,,
0.652797,495.659,77.2459,22:16,759.284,,,,,,,,
0.627996,476.836,72.7685,22:23,759.298,,,,,,,,
0.602835,457.759,68.0660,22:31,759.344,,,,,,,,
0.577716,438.729,63.3964,22:39,759.421,,,,,,,,
0.552602,419.679,58.9399,22:47,759.459,,,,,,,,
0.527413,400.519,54.8370,22:54,759.402,,,,,,,,
0.502094,381.303,51.1639,23:00,759.426,,,,,,,,
0.488837,371.282,49.4068,23:06,759.521,,,,,,,,
0.476053,361.59,47.8173,23:11,759.559,,,,,,,,
0.463487,351.977,46.3629,23:16,759.411,,,,,,,,
0.450937,342.438,44.9815,23:21,759.392,,,,,,,,
0.44419,337.313,44.2803,23:24,759.389,,,,,,,,
0.437934,332.602,43.6171,23:28,759.481,,,,,,,,
0.426169,323.641,42.3828,23:33,759.42,,,,,,,,
0.413361,313.919,41.0568,23:38,759.431,,,,,,,,
0.400658,304.262,39.8307,23:42,759.404,,,,,,,,
0.376329,285.826,37.8467,23:47,759.51,,,,,,,,
0.351437,266.853,36.1550,23:51,759.321,,,,,,,,
0.32605,247.555,34.6246,23:55,759.252,,,,,,,,
0.300868,228.398,33.1965,23:59,759.131,,,,,,,,

File: HRSA2420 9999999 HR_GASSORP 000-617_Table.csv
Relative Pressure,Absolute Pressure,Adsorbed Amount,Elapsed Time,Saturation Pressure,BJH-A-CuPV_(Pore Width),BJH-A-CuPV_(Pore Volume),BJH-A-PoSD_(Pore Width),BJH-A-PoSD_(dV/dlog(D)PV),BJH-D-CuPV_(Pore Width),BJH-D-CuPV_(Pore Volume),BJH-D-PoSD_(Pore Width),BJH-D-PoSD_(dV/dlog(D)PV)
0.000315847,0.2421089,3.85198,5:22,843.191,83.05539,0.2814394,98.37168,0.07658838,63.78482,0.0100383,73.45338,0.000441
0.002641986,2.02248,7.17398,7:24,842.067,42.34868,0.250096,50.38066,0.2044823,48.25645,0.01872244,53.8098,0.000812372
0.006710835,5.13202,9.6558,9:18,841.21,29.43622,0.1974709,33.53031,0.1795783,42.31568,0.02424565,44.87648,0.001272095
0.008346043,6.35532,10.40721,16:13,837.625,23.16611,0.1657062,25.52033,0.139832,32.23858,0.04629625,35.85956,0.004502168
0.0106946,8.142343,11.28347,16:20,837.488,18.88821,0.1494812,20.56835,0.1300981,25.5002,0.08677163,28.03988,0.006697581
0.0277561,21.1308,15.56104,16:30,837.431,15.92041,0.137621,17.13558,0.1286846,19.76645,0.1196085,21.86338,0.005274269
0.0453261,34.506,18.41422,16:34,837.412,13.71095,0.1280939,14.6399,0.1330659,15.75574,0.1373702,17.27517,0.004762043
0.0641993,48.8741,20.67593,16:39,837.415,12.00441,0.1197119,12.73646,0.1447787,13.56982,0.1471877,14.48513,0.005130114
0.0802541,61.1003,22.23122,16:44,837.469,10.6496,0.1117402,11.24013,0.1587993,12.75186,0.1510553,13.1329,0.005416169
0.109213,83.147,24.52318,16:48,837.464,9.559341,0.103889,10.0413,0.1723865,11.29513,0.1587674,11.92642,0.006284729
0.136846,104.176,26.36678,16:53,837.388,8.643283,0.09610678,9.051702,0.1844865,10.1047,0.1661352,10.6267,0.007512373
0.164392,125.116,28.01381,16:57,837.19,7.881368,0.08830426,8.22448,0.192214,9.157192,0.1732511,9.579119,0.009065342
0.191878,146.023,29.55502,17:01,837.12,7.222919,0.08067642,7.521217,0.1938849,8.350452,0.1805188,8.712308,0.01112078
0.21942,166.96,31.03188,17:06,837.009,6.657002,0.07329058,6.915084,0.1903374,7.676031,0.1881264,7.981413,0.0137929
0.246899,187.864,32.49103,17:10,836.983,6.154225,0.06640535,6.384345,0.1839673,7.082647,0.196339,7.352477,0.01702679
0.27444,208.798,33.93775,17:15,836.895,5.712432,0.0600215,5.915602,0.1757217,6.570487,0.2051401,6.804864,0.02082047
0.301958,229.692,35.39558,17:18,836.743,5.316311,0.05415619,5.499054,0.1656919,6.111303,0.2146056,6.322041,0.02421782
0.329462,250.59,36.8819,17:22,836.664,4.96089,0.04880095,5.125373,0.1535809,5.70284,0.224114,5.891006,0.02641463
0.356921,271.492,38.42828,17:27,836.715,4.63903,0.04396205,4.788366,0.1407989,5.336078,0.2331791,5.505555,0.02726394
0.384458,292.391,40.04231,17:31,836.58,4.342756,0.03966985,4.480399,0.1277848,5.003361,0.2413939,5.15746,0.02648305
0.41142,312.923,41.74478,17:36,836.651,4.074213,0.03583041,4.199305,0.1154725,4.69898,0.2485153,4.840209,0.02483074
0.438892,333.814,43.61038,17:40,836.641,3.824172,0.03244824,3.940728,0.103247,4.550128,0.2518131,4.621793,0.02373723
0.466256,354.612,45.61766,17:44,836.607,3.592457,0.02945272,3.700576,0.09111146,4.412738,0.2547193,4.479002,0.02261809
0.493631,375.396,47.79247,17:50,836.526,3.376571,0.02680381,3.477386,0.0792825,4.283147,0.2572867,4.345715,0.02164954
0.521026,396.166,50.13305,17:55,836.392,3.17361,0.02451636,3.268397,0.0675741,4.158748,0.2596671,4.21883,0.02110504
0.548179,416.849,52.65172,18:01,836.467,2.986104,0.02255,3.073796,0.05740625,4.093815,0.260832,4.125693,0.02102738
0.575673,437.662,55.40656,18:06,836.288,2.804989,0.02091067,2.889557,0.04863683,4.034767,0.2619562,4.063796,0.02100076
0.602921,458.379,58.37931,18:13,836.291,2.633444,0.01952676,2.713513,0.04178284,3.926615,0.2640429,3.978986,0.02077713
0.630207,479.089,61.62915,18:20,836.229,2.469368,0.0182996,2.545873,0.03649767,3.812897,0.2662792,3.867809,0.0198374
0.65759,499.927,65.15069,18:26,836.265,2.311771,0.01723469,2.385141,0.03243471,3.704008,0.2682416,3.756621,0.01780614
0.684881,520.622,68.94151,18:33,836.179,2.159388,0.01626614,2.230184,0.02928497,3.505293,0.27093,3.598276,0.0125862
0.712392,541.401,73.02482,18:40,835.973,2.011493,0.01536964,2.080023,0.02671548,3.313915,0.2726724,3.403334,0.008668682
0.739567,561.967,77.38181,18:48,835.845,1.866084,0.01450086,1.933195,0.02486539,3.129555,0.2738725,3.215553,0.006591662
0.767016,582.775,82.04328,18:56,835.774,1.722259,0.01368928,1.788303,0.02408252,2.955997,0.274802,3.036957,0.006084969
0.794241,603.538,86.87272,19:04,835.882,1.577466,0.01284569,1.643455,0.02458346,,,,
0.821867,624.45,91.86804,19:11,835.774,1.428757,0.01194138,1.49578,0.02671372,,,,
0.849126,645.171,96.91484,19:19,835.786,1.264153,0.0108527,1.336599,0.03118357,,,,
0.876616,666.008,102.0943,19:27,835.724,1.165582,0.009336338,1.211001,0.03414708,,,,
0.90396,686.76,107.442,19:35,835.696,1.037311,0.00817234,1.09437,0.03615722,,,,
0.931027,707.403,113.142,19:43,835.79,0.894674,0.006356757,0.9562982,0.03404621,,,,
0.957704,727.768,119.654,19:52,835.9,0.6973164,0.004016925,0.7746519,0.01781087,,,,
0.984321,747.927,127.766,20:02,835.825,0.6575723,0.001205468,0.6764593,0.01505812,,,,
1.00942,766.995,138.805,20:15,835.818,0.6255161,0.000830169,0.6408787,0.01239326,,,,
1.03762,788.214,160.375,20:34,835.596,0.5123107,0.000472375,0.5599649,0.001909369,,,,
1.06872,811.448,196.9418,21:06,835.199,,,,,,,,
1.08329,822.412,210.868,21:20,835.099,,,,,,,,
1.09068,827.965,219.746,21:32,835.04,,,,,,,,
1.07297,814.785,211.156,21:42,835.311,,,,,,,,
1.05881,804.159,204.063,21:53,835.44,,,,,,,,
1.04508,793.893,198.073,22:02,835.611,,,,,,,,
1.0371,787.95,194.328,22:11,835.742,,,,,,,,
1.01665,772.269,179.805,22:30,835.583,,,,,,,,
0.993773,754.973,154.044,22:56,835.674,,,,,,,,
0.961879,730.616,133.396,23:12,835.528,,,,,,,,
0.925801,703.273,121.939,23:26,835.601,,,,,,,,
0.897326,681.503,115.498,23:35,835.43,,,,,,,,
0.884239,671.543,112.944,23:42,835.404,,,,,,,,
0.856444,650.379,107.908,23:50,835.335,,,,,,,,
0.828126,628.936,103.164,23:57,835.416,,,,,,,,
0.80072,608.076,98.69178,0:05,835.353,,,,,,,,
0.772941,586.991,94.22919,0:13,835.369,,,,,,,,
0.745736,566.314,89.71039,0:20,835.343,,,,,,,,
0.718077,545.224,84.97049,0:29,835.212,,,,,,,,
0.690795,524.52,80.04535,0:37,835.228,,,,,,,,
0.663119,503.535,74.8726,0:46,835.278,,,,,,,,
0.635487,482.602,69.73604,0:54,835.363,,,,,,,,
0.607862,461.646,64.83389,1:03,835.405,,,,,,,,
0.580154,440.571,60.3207,1:11,835.343,,,,,,,,
0.552303,419.433,56.28029,1:18,835.369,,,,,,,,
0.537721,408.41,54.34748,1:24,835.473,,,,,,,,
0.523659,397.75,52.59903,1:30,835.515,,,,,,,,
0.509836,387.175,50.99919,1:35,835.352,,,,,,,,
0.496031,376.682,49.47965,1:41,835.331,,,,,,,,
0.4886094,371.045,48.70833,1:44,835.328,,,,,,,,
0.481728,365.863,47.97881,1:48,835.429,,,,,,,,
0.468786,356.006,46.62108,1:54,835.362,,,,,,,,
0.454697,345.311,45.16248,1:59,835.374,,,,,,,,
0.440724,334.688,43.81377,2:04,835.345,,,,,,,,
0.413962,314.409,41.63137,2:09,835.462,,,,,,,,
0.38658,293.539,39.7705,2:14,835.253,,,,,,,,
0.358656,272.31,38.08706,2:18,835.177,,,,,,,,
0.330955,251.238,36.51615,2:22,835.044,,,,,,,,